{
  "resourceType": "CareTeam",
  "id": "example",
  "text": {
    "status": "generated",
    "div": "<div>Care Team</div>"
  },
  "contained": [
    {
      "resourceType": "Practitioner",
      "id": "pr1",
      "name": [
        {
          "family": [
            "Dietician"
          ],
          "given": [
            "Dorothy"
          ]
        }
      ],
      "practitionerRole": [
        {
          "specialty": [
            {
              "text": "Dietician"
            }
          ]
        }
      ]
    }
  ],
  "subject": {
    "reference": "Patient/example",
    "display": "Peter James Chalmers"
  },
  "period": {
    "end": "2013-01-01"
  },
  "participant": [
    {
      "role": {
        "text": "responsiblePerson"
      },
      "member": {
        "reference": "Patient/example",
        "display": "Peter James Chalmers"
      }
    },
    {
      "role": {
        "text": "adviser"
      },
      "member": {
        "reference": "#pr1",
        "display": "Dorothy Dietition"
      }
    }
  ]
}