<?xml version="1.0" encoding="UTF-8"?><CarePlan xmlns="http://hl7.org/fhir">
  <id value="f001"/>
  <text><status value="generated"/><div xmlns="http://www.w3.org/1999/xhtml"><p><b>Generated Narrative with Details</b></p><p><b>id</b>: f001</p><p><b>contained</b>: </p><p><b>identifier</b>: CP2903 (OFFICIAL)</p><p><b>subject</b>: <a>P. van de Heuvel</a></p><p><b>status</b>: completed</p><p><b>period</b>: Jun 26, 2011 --&gt; Jun 27, 2011</p><p><b>modified</b>: Jun 27, 2011 9:30:10 AM</p><p><b>addresses</b>: <a>?????</a></p><h3>Participants</h3><table><tr><td>-</td><td><b>Member</b></td></tr><tr><td>*</td><td><a>P. Voigt</a></td></tr></table><p><b>goal</b>: id: goal; P. van de Heuvel; description: recovery surgery on heart of patient; status: achieved; Annotation: goal accomplished without complications</p><blockquote><p><b>activity</b></p><h3>Details</h3><table><tr><td>-</td><td><b>Category</b></td><td><b>Code</b></td><td><b>Status</b></td><td><b>Prohibited</b></td><td><b>Scheduled[x]</b></td><td><b>Performer</b></td></tr><tr><td>*</td><td>Procedure <span>(Details : {http://hl7.org/fhir/care-plan-activity-category code &#39;procedure&#39; = &#39;Procedure)</span></td><td>Operation on heart <span>(Details : {SNOMED CT code &#39;64915003&#39; = &#39;Operation on heart (procedure)&#39;, given as &#39;Operation on heart&#39;})</span></td><td>completed</td><td>true</td><td>2011-06-27T09:30:10+01:00</td><td><a>P. Voigt</a></td></tr></table></blockquote></div></text><contained>
    <Goal>
      <id value="goal"/>
			<subject>
				<reference value="Patient/f001"/>
				<display value="P. van de Heuvel"/>
			</subject>
      <description value="recovery surgery on heart of patient"/>
      <status value="achieved"/>
      <!--   urn:oid:2.16.840.1.113883.4.642.1.38   -->
      <note>
        <text value="goal accomplished without complications"/>
      </note>
    </Goal>
  </contained>
  <identifier>
    <use value="official"/>
    <!--   urn:oid:2.16.840.1.113883.4.642.1.36   -->
    <system value="http://www.bmc.nl/zorgportal/identifiers/careplans"/>
    <value value="CP2903"/>
  </identifier>
  <subject>
    <reference value="Patient/f001"/>
    <display value="P. van de Heuvel"/>
  </subject>
  <status value="completed"/>
  <!--   urn:oid:2.16.840.1.113883.4.642.1.36   -->
  <period>
    <start value="2011-06-26"/>
    <end value="2011-06-27"/>
  </period>
  <modified value="2011-06-27T09:30:10+01:00"/>
  <addresses>
    <reference value="Condition/f201"/>
    <!--  TODO Correcte referentie  -->
    <display value="?????"/>
  </addresses>
  <participant>
    <member>
      <reference value="Practitioner/f002"/>
      <display value="P. Voigt"/>
    </member>
  </participant>
  <goal>
    <reference value="#goal"/>
  </goal>
  <activity>
    <detail>
      <category><coding><system value="http://hl7.org/fhir/care-plan-activity-category"/><code value="procedure"/></coding></category>
      <!--   urn:oid:2.16.840.1.113883.4.642.1.39   -->
      <code>
        <coding>
          <system value="http://snomed.info/sct"/>
          <code value="64915003"/>
          <display value="Operation on heart"/>
        </coding>
      </code>
      <status value="completed"/>
      <prohibited value="true"/>
      <scheduledString value="2011-06-27T09:30:10+01:00"/>
      <performer>
        <reference value="Practitioner/f002"/>
        <display value="P. Voigt"/>
      </performer>
    </detail>
  </activity>
</CarePlan>